Folder: hntb_harvesting/Stock

Note: README.md
Trading || Hntb_harvesting

Entry for Long

Price must be greater than 50 day moving average
Prior week from last day close (previous day) must be down
Last day close must be hammer with price up and in top 1/10 of price range (high-low)

Entry for Short
Price must be less than 50 day moving average
Prior week from last day close must be up 
Last day close must be hammer down with price in bottom 1/10 of price range (high-low) last 



Stocks:

Entry for Long

Price must be greater than 10
Volume must be greater that 200k 
Price must be greater than 50 day moving average
Prior week from last day close (previous day) must be down
Last day close must be hammer with price up and in top 1/10 of price range (high-low)
Last day close relative volume must be greater than 1 (relative volume is last day volume greater than 10 day previous average)

Entry for Short
Price must be less than 50 day moving average
Prior week from last day close must be up 
Last day close must be hammer down with price in bottom 1/10 of price range (high-low) last 
Last day close relative volume must be great than 1 (relative volume is last day volume greater than 10 day previous average)

File: TGA.tsv
20170103	1.64	1.73	1.60	1.73	255000
20170110	1.66	1.70	1.64	1.68	114100
20170118	1.68	1.68	1.63	1.63	35400
20170125	1.66	1.71	1.63	1.64	95100
20170201	1.64	1.66	1.60	1.63	106900
20170208	1.59	1.65	1.56	1.57	56600
20170215	1.70	1.71	1.63	1.65	101000
20170223	1.63	1.65	1.56	1.58	181600
20170302	1.58	1.59	1.54	1.56	84800
20170309	1.50	1.51	1.48	1.48	95500
20170316	1.47	1.50	1.42	1.46	119300
20170323	1.43	1.45	1.39	1.42	91100
20170330	1.54	1.54	1.48	1.50	43200
20170406	1.48	1.54	1.48	1.51	73500
20170413	1.56	1.56	1.48	1.48	58800
20170421	1.46	1.49	1.39	1.45	119700
20170428	1.43	1.43	1.38	1.38	80400
20170505	1.30	1.33	1.30	1.32	42100
20170512	1.44	1.46	1.40	1.42	84800
20170519	1.51	1.54	1.49	1.51	22900
20170526	1.42	1.44	1.40	1.41	43300
20170605	1.36	1.38	1.31	1.33	82900
20170612	1.32	1.32	1.26	1.26	104000
20170619	1.21	1.31	1.21	1.26	223200
20170626	1.26	1.26	1.20	1.25	18900
20170703	1.26	1.28	1.23	1.25	10100
20170711	1.20	1.22	1.19	1.20	24700
20170718	1.29	1.30	1.27	1.29	39200
20170725	1.28	1.29	1.27	1.28	41000
20170801	1.28	1.29	1.26	1.27	6200
20170808	1.18	1.21	1.16	1.17	65800
20170815	1.13	1.15	1.12	1.12	65700
20170822	1.13	1.17	1.11	1.13	72600
20170829	1.17	1.26	1.17	1.22	23500
20170906	1.23	1.26	1.21	1.21	34700
20170913	1.10	1.18	1.06	1.14	144800
20170920	1.09	1.12	1.08	1.10	129100
20170927	1.26	1.30	1.25	1.29	99300
20171004	1.34	1.37	1.32	1.36	47700
20171011	1.48	1.55	1.46	1.55	115000
20171018	1.48	1.50	1.46	1.50	46000
20171025	1.48	1.49	1.46	1.46	19400
20171101	1.59	1.67	1.59	1.67	151400
20171108	1.48	1.48	1.43	1.44	20400
20171115	1.42	1.42	1.35	1.40	49300
20171122	1.40	1.45	1.40	1.41	116900
20171130	1.36	1.38	1.35	1.37	99100
20171207	1.30	1.30	1.27	1.29	34200
20171214	1.27	1.27	1.24	1.26	102200
20171221	1.23	1.26	1.22	1.26	132500
20171229	1.35	1.36	1.33	1.36	57600
20180108	1.36	1.36	1.34	1.36	119300
20180116	1.41	1.41	1.35	1.38	91300
20180123	1.38	1.41	1.36	1.37	49000
20180130	1.40	1.41	1.30	1.31	180500
20180206	1.32	1.32	1.29	1.32	93400
20180213	1.24	1.27	1.24	1.26	81000
20180221	1.26	1.27	1.21	1.21	69700
20180228	1.23	1.25	1.19	1.23	70400
20180307	1.23	1.25	1.20	1.21	64900
20180314	1.27	1.27	1.25	1.26	21900
20180321	1.27	1.33	1.27	1.33	41900
20180328	1.26	1.28	1.24	1.25	39400
20180405	1.24	1.26	1.18	1.19	273200
20180412	1.24	1.29	1.23	1.29	69900
20180419	1.32	1.40	1.32	1.39	54600
20180426	1.55	1.59	1.53	1.54	64400
20180503	1.77	1.83	1.75	1.83	144600
20180510	2.02	2.02	1.87	1.89	285000
20180517	1.94	1.99	1.92	1.93	664300
20180524	2.27	2.32	2.17	2.18	392500
20180601	2.42	2.44	2.30	2.34	415800
20180608	2.32	2.34	2.25	2.33	189400
20180615	2.18	2.18	2.12	2.12	431400
20180622	2.21	2.34	2.18	2.26	528300
20180629	2.62	2.68	2.54	2.62	641600
20180709	2.82	3.12	2.79	3.11	1352500
20180716	3.78	3.78	3.47	3.57	1696900
20180723	3.26	3.31	3.18	3.23	384500
20180730	3.01	3.05	2.94	2.96	359500
20180806	3.03	3.12	2.90	2.92	430400
20180813	3.05	3.05	2.86	2.89	533600
20180820	2.93	3.20	2.93	3.15	444800
20180827	3.30	3.34	3.23	3.28	231800
20180904	3.23	3.23	3.11	3.17	220900
20180911	3.44	3.64	3.36	3.57	805200
20180918	3.40	3.43	3.22	3.24	365300
20180925	3.35	3.54	3.26	3.29	703300
20181002	3.34	3.40	3.30	3.32	452700
20181009	3.07	3.26	3.00	3.20	157100
20181016	2.88	3.00	2.87	2.97	318600
20181023	2.41	2.48	1.93	1.94	2656500
20181030	2.18	2.25	2.08	2.21	537200
20181106	2.27	2.31	2.22	2.28	181300
20181113	2.01	2.36	1.98	2.27	508300
20181120	2.16	2.20	1.99	2.04	271700
20181128	1.94	1.98	1.87	1.96	185400
20181206	2.02	2.05	1.83	1.87	267500
20181213	1.81	1.83	1.75	1.78	146800
20181220	1.59	1.59	1.48	1.55	302600
20181228	1.60	1.65	1.56	1.61	117000
20190107	1.84	2.03	1.84	1.98	182600
20190114	1.87	1.90	1.82	1.85	60700
20190122	1.72	1.81	1.67	1.68	97100
20190129	1.72	1.74	1.60	1.65	257800
20190205	1.84	1.85	1.80	1.83	42500
20190212	1.80	1.83	1.77	1.82	40900
20190220	2.04	2.09	1.88	1.92	96700
20190227	1.91	1.95	1.91	1.93	26100
20190306	1.95	2.10	1.93	1.95	130700
20190313	2.02	2.06	1.97	1.99	93900
20190320	2.08	2.08	2.03	2.04	155900
20190327	1.68	1.78	1.67	1.76	85600
20190403	1.82	1.82	1.74	1.75	76700
20190410	1.81	1.90	1.81	1.84	112900
20190417	1.78	1.82	1.78	1.81	58400
20190425	1.87	1.90	1.85	1.88	68200
20190502	1.86	1.86	1.82	1.84	34600
20190509	1.78	1.78	1.74	1.76	34000
20190516	1.71	1.74	1.70	1.71	70200
20190523	1.56	1.56	1.46	1.48	143700
20190531	1.45	1.48	1.40	1.46	105100
20190607	1.47	1.51	1.47	1.51	81600
20190614	1.43	1.43	1.34	1.36	122100
20190621	1.37	1.40	1.37	1.37	340600
20190628	1.38	1.38	1.35	1.35	56200
20190708	1.31	1.36	1.30	1.31	268800
20190715	1.43	1.46	1.42	1.44	75300
20190722	1.42	1.43	1.37	1.39	132800
20190729	1.34	1.39	1.34	1.36	121600
20190805	1.40	1.44	1.36	1.42	111000
20190812	1.38	1.44	1.36	1.44	124200
20190819	1.43	1.45	1.38	1.41	143000
20190826	1.33	1.34	1.29	1.30	114800
20190903	1.33	1.33	1.29	1.33	85900
20190910	1.46	1.50	1.44	1.49	260700
20190917	1.51	1.52	1.43	1.46	138700
20190924	1.41	1.43	1.38	1.39	107400
20191001	1.32	1.35	1.30	1.32	213100
20191008	1.35	1.35	1.29	1.31	91700
20191015	1.29	1.33	1.28	1.29	74000
20191022	1.25	1.27	1.23	1.24	137000
20191029	1.19	1.21	1.17	1.19	226400
20191105	1.24	1.28	1.23	1.26	110900
20191112	1.22	1.22	1.18	1.18	150100
20191119	1.11	1.15	1.11	1.12	259800
20191126	1.15	1.17	1.13	1.16	118700
20191204	1.13	1.15	1.11	1.14	220900
20191211	1.18	1.19	1.17	1.19	72200
20191218	1.28	1.32	1.24	1.30	115400
20191226	1.45	1.48	1.40	1.44	108800
20200103	1.49	1.50	1.42	1.45	257400
20200110	1.40	1.42	1.35	1.41	101700
20200117	1.39	1.41	1.34	1.39	166600
20200127	1.26	1.26	1.20	1.22	188400
20200203	1.28	1.28	1.22	1.25	79300
20200210	1.30	1.30	1.23	1.25	56800
20200218	1.20	1.25	1.19	1.20	105200
20200225	1.21	1.23	1.16	1.18	165500
20200303	1.11	1.15	1.07	1.11	64500
20200310	0.75	0.83	0.68	0.79	188500
20200317	0.51	0.51	0.41	0.46	52300
20200324	0.40	0.45	0.38	0.42	160900
20200331	0.36	0.40	0.35	0.36	236500
20200407	0.41	0.44	0.39	0.40	130300
20200415	0.41	0.46	0.40	0.43	92500
20200422	0.44	0.45	0.40	0.43	80300
20200429	0.48	0.58	0.47	0.56	347600
20200506	0.59	0.60	0.51	0.53	74000
20200513	0.48	0.50	0.46	0.49	62200
20200520	0.53	0.54	0.50	0.54	177200
20200528	0.56	0.56	0.51	0.54	149800
20200604	0.55	0.61	0.52	0.59	279900
20200611	0.56	0.60	0.54	0.57	164300
20200618	0.57	0.59	0.55	0.57	62300
20200625	0.56	0.59	0.54	0.56	70600
20200702	0.59	0.62	0.58	0.60	114900
20200710	0.56	0.63	0.56	0.60	77900
20200717	0.60	0.60	0.56	0.58	111200
20200724	0.60	0.60	0.57	0.59	114600
20200731	0.57	0.60	0.57	0.58	91000
20200807	0.59	0.60	0.57	0.60	79800
20200814	0.60	0.60	0.58	0.59	82300
20200821	0.56	0.57	0.53	0.57	314100
20200828	0.54	0.56	0.53	0.55	72800
20200904	0.52	0.54	0.49	0.50	191800
20200914	0.45	0.47	0.44	0.46	96700
20200921	0.39	0.42	0.39	0.41	127300
20200928	0.40	0.41	0.38	0.38	120600
20201005	0.40	0.41	0.39	0.40	131400
20201012	0.48	0.48	0.43	0.45	159800
20201019	0.46	0.48	0.44	0.44	93900
20201026	0.42	0.42	0.39	0.40	320500
20201102	0.37	0.40	0.37	0.39	152600
20201109	0.43	0.46	0.39	0.42	1091500
20201116	0.43	0.46	0.42	0.44	386100
20201123	0.47	0.48	0.45	0.48	206800
20201201	0.53	0.53	0.49	0.50	167200
20201208	0.84	0.93	0.83	0.88	1018200
20201215	1.00	1.03	0.93	0.95	284000
20201222	0.83	0.90	0.83	0.88	264200
20201230	0.85	0.95	0.85	0.87	544600
20210107	0.99	1.04	0.94	1.00	314000
20210114	1.16	1.19	1.12	1.18	639600
20210122	1.14	1.14	1.09	1.11	333600
20210129	1.07	1.11	1.02	1.04	702400
20210205	1.27	1.29	1.22	1.27	324100
20210212	1.41	1.43	1.34	1.40	487600
20210222	1.40	1.48	1.35	1.47	439300
20210301	1.51	1.58	1.46	1.50	506400
20210308	1.57	1.57	1.50	1.52	226600
20210315	1.73	1.94	1.68	1.81	923800
20210322	1.70	1.73	1.61	1.65	200500
20210329	1.62	1.64	1.52	1.54	197300
20210406	1.56	1.62	1.50	1.51	438200
20210413	1.46	1.51	1.43	1.47	331500
20210420	1.54	1.54	1.45	1.50	102800
20210427	1.55	1.58	1.51	1.55	145400
20210504	1.60	1.63	1.55	1.61	198300
20210511	1.48	1.56	1.42	1.54	448800
20210518	1.74	1.80	1.71	1.77	531500
20210525	1.80	1.80	1.69	1.71	247600
20210602	1.86	1.90	1.80	1.88	646900
20210609	1.96	1.97	1.89	1.91	144400
20210616	1.84	1.97	1.84	1.93	333500
20210623	1.87	2.03	1.86	1.93	648600
20210630	1.94	1.99	1.90	1.93	274300
20210708	1.78	1.83	1.72	1.77	298600
20210715	1.92	1.92	1.68	1.70	264800
20210722	1.72	1.74	1.65	1.70	68600
20210729	1.63	1.73	1.63	1.73	110900
20210805	1.59	1.66	1.58	1.59	118400
20210812	1.73	1.75	1.67	1.71	84700
20210819	1.55	1.59	1.49	1.55	320900
20210826	1.81	1.83	1.74	1.78	123800
20210902	1.79	1.87	1.79	1.83	158900
20210910	1.85	1.86	1.79	1.83	109100
20210917	1.98	1.98	1.91	1.94	164300
20210924	2.08	2.12	2.01	2.06	199000
20211001	2.22	2.42	2.20	2.28	687200
20211008	3.13	3.25	3.05	3.18	1235600
20211015	2.84	2.95	2.60	2.61	1056500
20211022	2.62	2.69	2.60	2.66	280000
20211029	2.73	2.75	2.61	2.67	273500
20211105	2.48	2.80	2.48	2.75	520200
20211112	3.03	3.20	3.02	3.17	1108400
20211119	2.97	3.00	2.76	2.76	1451800
20211129	3.00	3.01	2.74	2.79	1149400
20211206	2.62	2.74	2.56	2.66	405600
20211213	3.11	3.13	2.85	2.88	643200
20211220	2.58	2.60	2.47	2.55	446000
20211228	3.07	3.14	2.96	2.96	397900
20220104	3.11	3.22	3.10	3.14	585600
20220111	3.11	3.26	3.07	3.24	505400
20220119	3.33	3.34	3.16	3.31	637800
20220126	3.01	3.14	2.99	3.03	1110800
20220202	3.21	3.23	3.11	3.18	398200
20220209	3.21	3.33	3.14	3.28	438200
20220216	3.33	3.39	3.19	3.22	709500
20220223	3.25	3.40	3.22	3.38	661100